<?xml version="1.0" encoding="UTF-8"?>

<Bundle xmlns="http://hl7.org/fhir">
  <id value="PilgrimFolderSearchSetExtended"/>
  <type value="searchset"/>
  <link>
    <relation value="self"/>
    <url value="http://example.org/fhir/List?_id=PilgrimFolder&amp;_include=List:item"/>
  </link>
  <entry>
    <fullUrl value="http://smart.who.int/ips-pilgrimage/DocumentReference/IPSPDFDocumentReference"/>
    <resource>
      <DocumentReference>
        <id value="IPSPDFDocumentReference"/>
        <meta>
          <profile value="https://profiles.ihe.net/ITI/MHD/StructureDefinition/IHE.MHD.Minimal.DocumentReference"/>
          <security>
            <system value="http://terminology.hl7.org/CodeSystem/v3-ActReason"/>
            <code value="HTEST"/>
          </security>
        </meta>
        <text>
          <status value="generated"/><div xmlns="http://www.w3.org/1999/xhtml"><a name="DocumentReference_IPSPDFDocumentReference"> </a><p class="res-header-id"><b>Generated Narrative: DocumentReference IPSPDFDocumentReference</b></p><a name="IPSPDFDocumentReference"> </a><a name="hcIPSPDFDocumentReference"> </a><a name="IPSPDFDocumentReference-en-US"> </a><div style="display: inline-block; background-color: #d9e0e7; padding: 6px; margin: 4px; border: 1px solid #8da1b4; border-radius: 5px; line-height: 60%"><p style="margin-bottom: 0px"/><p style="margin-bottom: 0px">Profile: <a href="https://profiles.ihe.net/ITI/MHD/4.2.2/StructureDefinition-IHE.MHD.Minimal.DocumentReference.html">MHD DocumentReference Minimal</a></p><p style="margin-bottom: 0px">Security Label: test health data (Details: ActReason code HTEST = 'test health data')</p></div><p><b>masterIdentifier</b>: <a href="http://terminology.hl7.org/5.5.0/NamingSystem-uri.html" title="As defined by RFC 3986 (http://www.ietf.org/rfc/rfc3986.txt)(with many schemes defined in many RFCs). For OIDs and UUIDs, use the URN form (urn:oid:(note: lowercase) and urn:uuid:). See http://www.ietf.org/rfc/rfc3001.txt and http://www.ietf.org/rfc/rfc4122.txt 

This oid is used as an identifier II.root to indicate the the extension is an absolute URI (technically, an IRI). Typically, this is used for OIDs and GUIDs. Note that when this OID is used with OIDs and GUIDs, the II.extension should start with urn:oid or urn:uuid: 

Note that this OID is created to aid with interconversion between CDA and FHIR - FHIR uses urn:ietf:rfc:3986 as equivalent to this OID. URIs as identifiers appear more commonly in FHIR.

This OID may also be used in CD.codeSystem.">Uniform Resource Identifier (URI)</a>/urn:oid:1.2.840.113556.1.8000.2554.53432.348.12973.17740.34205.4355.50220.62003</p><p><b>identifier</b>: <a href="http://terminology.hl7.org/5.5.0/NamingSystem-uri.html" title="As defined by RFC 3986 (http://www.ietf.org/rfc/rfc3986.txt)(with many schemes defined in many RFCs). For OIDs and UUIDs, use the URN form (urn:oid:(note: lowercase) and urn:uuid:). See http://www.ietf.org/rfc/rfc3001.txt and http://www.ietf.org/rfc/rfc4122.txt 

This oid is used as an identifier II.root to indicate the the extension is an absolute URI (technically, an IRI). Typically, this is used for OIDs and GUIDs. Note that when this OID is used with OIDs and GUIDs, the II.extension should start with urn:oid or urn:uuid: 

Note that this OID is created to aid with interconversion between CDA and FHIR - FHIR uses urn:ietf:rfc:3986 as equivalent to this OID. URIs as identifiers appear more commonly in FHIR.

This OID may also be used in CD.codeSystem.">Uniform Resource Identifier (URI)</a>/urn:uuid:7d5bb8ac-68ee-4926-85e7-b8aac8e1f11e (use: official, )</p><p><b>status</b>: Current</p><p><b>type</b>: <span title="Codes:{http://loinc.org 60591-5}">Patient Summary Document</span></p><blockquote><p><b>content</b></p><h3>Attachments</h3><table class="grid"><tr><td style="display: none">-</td><td><b>ContentType</b></td><td><b>Url</b></td></tr><tr><td style="display: none">*</td><td>application/pdf</td><td><a href="https://worldhealthorganization.github.io/smart-ips-pilgrimage/branches/2.0.0/MyIPS.pdf">https://worldhealthorganization.github.io/smart-ips-pilgrimage/branches/2.0.0/MyIPS.pdf</a></td></tr></table><p><b>format</b>: <a href="https://profiles.ihe.net/fhir/ihe.formatcode.fhir/1.2.0/CodeSystem-formatcode.html#formatcode-urn.58ihe.58iti.58xds.582017.58mimeTypeSufficient">IHE Format Code set for use with Document Sharing urn:ihe:iti:xds:2017:mimeTypeSufficient</a>: mimeType Sufficient</p></blockquote></div>
        </text>
        <masterIdentifier>
          <system value="urn:ietf:rfc:3986"/>
          <value value="urn:oid:1.2.840.113556.1.8000.2554.53432.348.12973.17740.34205.4355.50220.62003"/>
        </masterIdentifier>
        <identifier>
          <use value="official"/>
          <system value="urn:ietf:rfc:3986"/>
          <value value="urn:uuid:7d5bb8ac-68ee-4926-85e7-b8aac8e1f11e"/>
        </identifier>
        <status value="current"/>
        <type>
          <coding>
            <system value="http://loinc.org"/>
            <code value="60591-5"/>
            <display value="Patient Summary Document"/>
          </coding>
        </type>
        <content>
          <attachment>
            <contentType value="application/pdf"/>
            <url value="https://worldhealthorganization.github.io/smart-ips-pilgrimage/branches/2.0.0/MyIPS.pdf"/>
          </attachment>
          <format>
            <system value="http://ihe.net/fhir/ihe.formatcode.fhir/CodeSystem/formatcode"/>
            <code value="urn:ihe:iti:xds:2017:mimeTypeSufficient"/>
          </format>
        </content>
      </DocumentReference>
    </resource>
  </entry>
  <entry>
    <fullUrl value="http://smart.who.int/ips-pilgrimage/DocumentReference/FHIRIPSDocumentReference"/>
    <resource>
      <DocumentReference>
        <id value="FHIRIPSDocumentReference"/>
        <meta>
          <profile value="https://profiles.ihe.net/ITI/MHD/StructureDefinition/IHE.MHD.Minimal.DocumentReference"/>
          <security>
            <system value="http://terminology.hl7.org/CodeSystem/v3-ActReason"/>
            <code value="HTEST"/>
          </security>
        </meta>
        <text>
          <status value="generated"/><div xmlns="http://www.w3.org/1999/xhtml"><a name="DocumentReference_FHIRIPSDocumentReference"> </a><p class="res-header-id"><b>Generated Narrative: DocumentReference FHIRIPSDocumentReference</b></p><a name="FHIRIPSDocumentReference"> </a><a name="hcFHIRIPSDocumentReference"> </a><a name="FHIRIPSDocumentReference-en-US"> </a><div style="display: inline-block; background-color: #d9e0e7; padding: 6px; margin: 4px; border: 1px solid #8da1b4; border-radius: 5px; line-height: 60%"><p style="margin-bottom: 0px"/><p style="margin-bottom: 0px">Profile: <a href="https://profiles.ihe.net/ITI/MHD/4.2.2/StructureDefinition-IHE.MHD.Minimal.DocumentReference.html">MHD DocumentReference Minimal</a></p><p style="margin-bottom: 0px">Security Label: test health data (Details: ActReason code HTEST = 'test health data')</p></div><p><b>masterIdentifier</b>: <a href="http://terminology.hl7.org/5.5.0/NamingSystem-uri.html" title="As defined by RFC 3986 (http://www.ietf.org/rfc/rfc3986.txt)(with many schemes defined in many RFCs). For OIDs and UUIDs, use the URN form (urn:oid:(note: lowercase) and urn:uuid:). See http://www.ietf.org/rfc/rfc3001.txt and http://www.ietf.org/rfc/rfc4122.txt 

This oid is used as an identifier II.root to indicate the the extension is an absolute URI (technically, an IRI). Typically, this is used for OIDs and GUIDs. Note that when this OID is used with OIDs and GUIDs, the II.extension should start with urn:oid or urn:uuid: 

Note that this OID is created to aid with interconversion between CDA and FHIR - FHIR uses urn:ietf:rfc:3986 as equivalent to this OID. URIs as identifiers appear more commonly in FHIR.

This OID may also be used in CD.codeSystem.">Uniform Resource Identifier (URI)</a>/urn:oid:1.2.840.113556.1.8000.2554.53432.348.12973.17740.34205.4355.50220.62002</p><p><b>identifier</b>: <a href="http://terminology.hl7.org/5.5.0/NamingSystem-uri.html" title="As defined by RFC 3986 (http://www.ietf.org/rfc/rfc3986.txt)(with many schemes defined in many RFCs). For OIDs and UUIDs, use the URN form (urn:oid:(note: lowercase) and urn:uuid:). See http://www.ietf.org/rfc/rfc3001.txt and http://www.ietf.org/rfc/rfc4122.txt 

This oid is used as an identifier II.root to indicate the the extension is an absolute URI (technically, an IRI). Typically, this is used for OIDs and GUIDs. Note that when this OID is used with OIDs and GUIDs, the II.extension should start with urn:oid or urn:uuid: 

Note that this OID is created to aid with interconversion between CDA and FHIR - FHIR uses urn:ietf:rfc:3986 as equivalent to this OID. URIs as identifiers appear more commonly in FHIR.

This OID may also be used in CD.codeSystem.">Uniform Resource Identifier (URI)</a>/urn:uuid:7d5bb8ac-68ee-4926-85e7-b8aac8e1f10e (use: official, )</p><p><b>status</b>: Current</p><p><b>type</b>: <span title="Codes:{http://loinc.org 60591-5}">Patient Summary Document</span></p><blockquote><p><b>content</b></p><h3>Attachments</h3><table class="grid"><tr><td style="display: none">-</td><td><b>ContentType</b></td><td><b>Url</b></td></tr><tr><td style="display: none">*</td><td>application/fhir+json</td><td><a href="https://worldhealthorganization.github.io/smart-ips-pilgrimage/branches/2.0.0/Bundle-MyIPS.json">https://worldhealthorganization.github.io/smart-ips-pilgrimage/branches/2.0.0/Bundle-MyIPS.json</a></td></tr></table><p><b>format</b>: unknown http://hl7.org/fhir/uv/ips/StructureDefinition/Bundle-uv-ips: http://hl7.org/fhir/uv/ips/StructureDefinition/Bundle-uv-ips</p></blockquote></div>
        </text>
        <masterIdentifier>
          <system value="urn:ietf:rfc:3986"/>
          <value value="urn:oid:1.2.840.113556.1.8000.2554.53432.348.12973.17740.34205.4355.50220.62002"/>
        </masterIdentifier>
        <identifier>
          <use value="official"/>
          <system value="urn:ietf:rfc:3986"/>
          <value value="urn:uuid:7d5bb8ac-68ee-4926-85e7-b8aac8e1f10e"/>
        </identifier>
        <status value="current"/>
        <type>
          <coding>
            <system value="http://loinc.org"/>
            <code value="60591-5"/>
            <display value="Patient Summary Document"/>
          </coding>
        </type>
        <content>
          <attachment>
            <contentType value="application/fhir+json"/>
            <url value="https://worldhealthorganization.github.io/smart-ips-pilgrimage/branches/2.0.0/Bundle-MyIPS.json"/>
          </attachment>
          <format>
            <system value="urn:ietf:rfc:3986"/>
            <code value="http://hl7.org/fhir/uv/ips/StructureDefinition/Bundle-uv-ips"/>
          </format>
        </content>
      </DocumentReference>
    </resource>
  </entry>
  <entry>
    <fullUrl value="http://smart.who.int/ips-pilgrimage/DocumentReference/IPSSignedPDFDocumentReference"/>
    <resource>
      <DocumentReference>
        <id value="IPSSignedPDFDocumentReference"/>
        <meta>
          <profile value="https://profiles.ihe.net/ITI/MHD/StructureDefinition/IHE.MHD.Minimal.DocumentReference"/>
          <security>
            <system value="http://terminology.hl7.org/CodeSystem/v3-ActReason"/>
            <code value="HTEST"/>
          </security>
        </meta>
        <text>
          <status value="generated"/><div xmlns="http://www.w3.org/1999/xhtml"><a name="DocumentReference_IPSSignedPDFDocumentReference"> </a><p class="res-header-id"><b>Generated Narrative: DocumentReference IPSSignedPDFDocumentReference</b></p><a name="IPSSignedPDFDocumentReference"> </a><a name="hcIPSSignedPDFDocumentReference"> </a><a name="IPSSignedPDFDocumentReference-en-US"> </a><div style="display: inline-block; background-color: #d9e0e7; padding: 6px; margin: 4px; border: 1px solid #8da1b4; border-radius: 5px; line-height: 60%"><p style="margin-bottom: 0px"/><p style="margin-bottom: 0px">Profile: <a href="https://profiles.ihe.net/ITI/MHD/4.2.2/StructureDefinition-IHE.MHD.Minimal.DocumentReference.html">MHD DocumentReference Minimal</a></p><p style="margin-bottom: 0px">Security Label: test health data (Details: ActReason code HTEST = 'test health data')</p></div><p><b>masterIdentifier</b>: <a href="http://terminology.hl7.org/5.5.0/NamingSystem-uri.html" title="As defined by RFC 3986 (http://www.ietf.org/rfc/rfc3986.txt)(with many schemes defined in many RFCs). For OIDs and UUIDs, use the URN form (urn:oid:(note: lowercase) and urn:uuid:). See http://www.ietf.org/rfc/rfc3001.txt and http://www.ietf.org/rfc/rfc4122.txt 

This oid is used as an identifier II.root to indicate the the extension is an absolute URI (technically, an IRI). Typically, this is used for OIDs and GUIDs. Note that when this OID is used with OIDs and GUIDs, the II.extension should start with urn:oid or urn:uuid: 

Note that this OID is created to aid with interconversion between CDA and FHIR - FHIR uses urn:ietf:rfc:3986 as equivalent to this OID. URIs as identifiers appear more commonly in FHIR.

This OID may also be used in CD.codeSystem.">Uniform Resource Identifier (URI)</a>/urn:oid:1.2.840.113556.1.8000.2554.53432.348.12973.17740.34205.4355.50220.62005</p><p><b>identifier</b>: <a href="http://terminology.hl7.org/5.5.0/NamingSystem-uri.html" title="As defined by RFC 3986 (http://www.ietf.org/rfc/rfc3986.txt)(with many schemes defined in many RFCs). For OIDs and UUIDs, use the URN form (urn:oid:(note: lowercase) and urn:uuid:). See http://www.ietf.org/rfc/rfc3001.txt and http://www.ietf.org/rfc/rfc4122.txt 

This oid is used as an identifier II.root to indicate the the extension is an absolute URI (technically, an IRI). Typically, this is used for OIDs and GUIDs. Note that when this OID is used with OIDs and GUIDs, the II.extension should start with urn:oid or urn:uuid: 

Note that this OID is created to aid with interconversion between CDA and FHIR - FHIR uses urn:ietf:rfc:3986 as equivalent to this OID. URIs as identifiers appear more commonly in FHIR.

This OID may also be used in CD.codeSystem.">Uniform Resource Identifier (URI)</a>/urn:uuid:7d5bb8ac-68ee-4926-85e7-b8aac8e1f13e (use: official, )</p><p><b>status</b>: Current</p><h3>RelatesTos</h3><table class="grid"><tr><td style="display: none">-</td><td><b>Code</b></td><td><b>Target</b></td></tr><tr><td style="display: none">*</td><td>Signs</td><td><a href="DocumentReference-IPSPDFDocumentReference.html">DocumentReference: masterIdentifier = OID:1.2.840.113556.1.8000.2554.53432.348.12973.17740.34205.4355.50220.62003; identifier = UUID:7d5bb8ac-68ee-4926-85e7-b8aac8e1f11e (use: official, ); status = current; type = Patient Summary Document</a></td></tr></table><blockquote><p><b>content</b></p><h3>Attachments</h3><table class="grid"><tr><td style="display: none">-</td><td><b>ContentType</b></td><td><b>Url</b></td></tr><tr><td style="display: none">*</td><td>application/json</td><td><a href="https://worldhealthorganization.github.io/smart-ips-pilgrimage/branches/2.0.0/MySignedIPSPDF.json">https://worldhealthorganization.github.io/smart-ips-pilgrimage/branches/2.0.0/MySignedIPSPDF.json</a></td></tr></table><p><b>format</b>: <a href="https://profiles.ihe.net/fhir/ihe.formatcode.fhir/1.2.0/CodeSystem-formatcode.html#formatcode-urn.58ihe.58iti.58dsg.58detached.582014">IHE Format Code set for use with Document Sharing urn:ihe:iti:dsg:detached:2014</a>: ITI DSG Detached</p></blockquote></div>
        </text>
        <masterIdentifier>
          <system value="urn:ietf:rfc:3986"/>
          <value value="urn:oid:1.2.840.113556.1.8000.2554.53432.348.12973.17740.34205.4355.50220.62005"/>
        </masterIdentifier>
        <identifier>
          <use value="official"/>
          <system value="urn:ietf:rfc:3986"/>
          <value value="urn:uuid:7d5bb8ac-68ee-4926-85e7-b8aac8e1f13e"/>
        </identifier>
        <status value="current"/>
        <relatesTo>
          <code value="signs"/>
          <target>
            <reference value="DocumentReference/IPSPDFDocumentReference"/>
          </target>
        </relatesTo>
        <content>
          <attachment>
            <contentType value="application/json"/>
            <url value="https://worldhealthorganization.github.io/smart-ips-pilgrimage/branches/2.0.0/MySignedIPSPDF.json"/>
          </attachment>
          <format>
            <system value="http://ihe.net/fhir/ihe.formatcode.fhir/CodeSystem/formatcode"/>
            <code value="urn:ihe:iti:dsg:detached:2014"/>
          </format>
        </content>
      </DocumentReference>
    </resource>
  </entry>
  <entry>
    <fullUrl value="http://smart.who.int/ips-pilgrimage/DocumentReference/FHIRIPSSignedDocumentReference"/>
    <resource>
      <DocumentReference>
        <id value="FHIRIPSSignedDocumentReference"/>
        <meta>
          <profile value="https://profiles.ihe.net/ITI/MHD/StructureDefinition/IHE.MHD.Minimal.DocumentReference"/>
          <security>
            <system value="http://terminology.hl7.org/CodeSystem/v3-ActReason"/>
            <code value="HTEST"/>
          </security>
        </meta>
        <text>
          <status value="generated"/><div xmlns="http://www.w3.org/1999/xhtml"><a name="DocumentReference_FHIRIPSSignedDocumentReference"> </a><p class="res-header-id"><b>Generated Narrative: DocumentReference FHIRIPSSignedDocumentReference</b></p><a name="FHIRIPSSignedDocumentReference"> </a><a name="hcFHIRIPSSignedDocumentReference"> </a><a name="FHIRIPSSignedDocumentReference-en-US"> </a><div style="display: inline-block; background-color: #d9e0e7; padding: 6px; margin: 4px; border: 1px solid #8da1b4; border-radius: 5px; line-height: 60%"><p style="margin-bottom: 0px"/><p style="margin-bottom: 0px">Profile: <a href="https://profiles.ihe.net/ITI/MHD/4.2.2/StructureDefinition-IHE.MHD.Minimal.DocumentReference.html">MHD DocumentReference Minimal</a></p><p style="margin-bottom: 0px">Security Label: test health data (Details: ActReason code HTEST = 'test health data')</p></div><p><b>masterIdentifier</b>: <a href="http://terminology.hl7.org/5.5.0/NamingSystem-uri.html" title="As defined by RFC 3986 (http://www.ietf.org/rfc/rfc3986.txt)(with many schemes defined in many RFCs). For OIDs and UUIDs, use the URN form (urn:oid:(note: lowercase) and urn:uuid:). See http://www.ietf.org/rfc/rfc3001.txt and http://www.ietf.org/rfc/rfc4122.txt 

This oid is used as an identifier II.root to indicate the the extension is an absolute URI (technically, an IRI). Typically, this is used for OIDs and GUIDs. Note that when this OID is used with OIDs and GUIDs, the II.extension should start with urn:oid or urn:uuid: 

Note that this OID is created to aid with interconversion between CDA and FHIR - FHIR uses urn:ietf:rfc:3986 as equivalent to this OID. URIs as identifiers appear more commonly in FHIR.

This OID may also be used in CD.codeSystem.">Uniform Resource Identifier (URI)</a>/urn:oid:1.2.840.113556.1.8000.2554.53432.348.12973.17740.34205.4355.50220.62004</p><p><b>identifier</b>: <a href="http://terminology.hl7.org/5.5.0/NamingSystem-uri.html" title="As defined by RFC 3986 (http://www.ietf.org/rfc/rfc3986.txt)(with many schemes defined in many RFCs). For OIDs and UUIDs, use the URN form (urn:oid:(note: lowercase) and urn:uuid:). See http://www.ietf.org/rfc/rfc3001.txt and http://www.ietf.org/rfc/rfc4122.txt 

This oid is used as an identifier II.root to indicate the the extension is an absolute URI (technically, an IRI). Typically, this is used for OIDs and GUIDs. Note that when this OID is used with OIDs and GUIDs, the II.extension should start with urn:oid or urn:uuid: 

Note that this OID is created to aid with interconversion between CDA and FHIR - FHIR uses urn:ietf:rfc:3986 as equivalent to this OID. URIs as identifiers appear more commonly in FHIR.

This OID may also be used in CD.codeSystem.">Uniform Resource Identifier (URI)</a>/urn:uuid:7d5bb8ac-68ee-4926-85e7-b8aac8e1f12e (use: official, )</p><p><b>status</b>: Current</p><h3>RelatesTos</h3><table class="grid"><tr><td style="display: none">-</td><td><b>Code</b></td><td><b>Target</b></td></tr><tr><td style="display: none">*</td><td>Signs</td><td><a href="DocumentReference-FHIRIPSDocumentReference.html">DocumentReference: masterIdentifier = OID:1.2.840.113556.1.8000.2554.53432.348.12973.17740.34205.4355.50220.62002; identifier = UUID:7d5bb8ac-68ee-4926-85e7-b8aac8e1f10e (use: official, ); status = current; type = Patient Summary Document</a></td></tr></table><blockquote><p><b>content</b></p><h3>Attachments</h3><table class="grid"><tr><td style="display: none">-</td><td><b>ContentType</b></td><td><b>Url</b></td></tr><tr><td style="display: none">*</td><td>application/json</td><td><a href="https://worldhealthorganization.github.io/smart-ips-pilgrimage/branches/2.0.0/MySignedIPS.json">https://worldhealthorganization.github.io/smart-ips-pilgrimage/branches/2.0.0/MySignedIPS.json</a></td></tr></table><p><b>format</b>: <a href="https://profiles.ihe.net/fhir/ihe.formatcode.fhir/1.2.0/CodeSystem-formatcode.html#formatcode-urn.58ihe.58iti.58dsg.58detached.582014">IHE Format Code set for use with Document Sharing urn:ihe:iti:dsg:detached:2014</a>: ITI DSG Detached</p></blockquote></div>
        </text>
        <masterIdentifier>
          <system value="urn:ietf:rfc:3986"/>
          <value value="urn:oid:1.2.840.113556.1.8000.2554.53432.348.12973.17740.34205.4355.50220.62004"/>
        </masterIdentifier>
        <identifier>
          <use value="official"/>
          <system value="urn:ietf:rfc:3986"/>
          <value value="urn:uuid:7d5bb8ac-68ee-4926-85e7-b8aac8e1f12e"/>
        </identifier>
        <status value="current"/>
        <relatesTo>
          <code value="signs"/>
          <target>
            <reference value="DocumentReference/FHIRIPSDocumentReference"/>
          </target>
        </relatesTo>
        <content>
          <attachment>
            <contentType value="application/json"/>
            <url value="https://worldhealthorganization.github.io/smart-ips-pilgrimage/branches/2.0.0/MySignedIPS.json"/>
          </attachment>
          <format>
            <system value="http://ihe.net/fhir/ihe.formatcode.fhir/CodeSystem/formatcode"/>
            <code value="urn:ihe:iti:dsg:detached:2014"/>
          </format>
        </content>
      </DocumentReference>
    </resource>
  </entry>
</Bundle>