{
  "resourceType" : "Bundle",
  "id" : "PilgrimFolderSearchSetExtended",
  "type" : "searchset",
  "link" : [{
    "relation" : "self",
    "url" : "http://example.org/fhir/List?_id=PilgrimFolder&_include=List:item"
  }],
  "entry" : [{
    "fullUrl" : "http://smart.who.int/ips-pilgrimage/DocumentReference/IPSPDFDocumentReference",
    "resource" : {
      "resourceType" : "DocumentReference",
      "id" : "IPSPDFDocumentReference",
      "meta" : {
        "profile" : ["https://profiles.ihe.net/ITI/MHD/StructureDefinition/IHE.MHD.Minimal.DocumentReference"],
        "security" : [{
          "system" : "http://terminology.hl7.org/CodeSystem/v3-ActReason",
          "code" : "HTEST"
        }]
      },
      "text" : {
        "status" : "generated",
        "div" : "<div xmlns=\"http://www.w3.org/1999/xhtml\"><a name=\"DocumentReference_IPSPDFDocumentReference\"> </a><p class=\"res-header-id\"><b>Generated Narrative: DocumentReference IPSPDFDocumentReference</b></p><a name=\"IPSPDFDocumentReference\"> </a><a name=\"hcIPSPDFDocumentReference\"> </a><a name=\"IPSPDFDocumentReference-en-US\"> </a><div style=\"display: inline-block; background-color: #d9e0e7; padding: 6px; margin: 4px; border: 1px solid #8da1b4; border-radius: 5px; line-height: 60%\"><p style=\"margin-bottom: 0px\"/><p style=\"margin-bottom: 0px\">Profile: <a href=\"https://profiles.ihe.net/ITI/MHD/4.2.2/StructureDefinition-IHE.MHD.Minimal.DocumentReference.html\">MHD DocumentReference Minimal</a></p><p style=\"margin-bottom: 0px\">Security Label: test health data (Details: ActReason code HTEST = 'test health data')</p></div><p><b>masterIdentifier</b>: <a href=\"http://terminology.hl7.org/5.5.0/NamingSystem-uri.html\" title=\"As defined by RFC 3986 (http://www.ietf.org/rfc/rfc3986.txt)(with many schemes defined in many RFCs). For OIDs and UUIDs, use the URN form (urn:oid:(note: lowercase) and urn:uuid:). See http://www.ietf.org/rfc/rfc3001.txt and http://www.ietf.org/rfc/rfc4122.txt \r\n\r\nThis oid is used as an identifier II.root to indicate the the extension is an absolute URI (technically, an IRI). Typically, this is used for OIDs and GUIDs. Note that when this OID is used with OIDs and GUIDs, the II.extension should start with urn:oid or urn:uuid: \r\n\r\nNote that this OID is created to aid with interconversion between CDA and FHIR - FHIR uses urn:ietf:rfc:3986 as equivalent to this OID. URIs as identifiers appear more commonly in FHIR.\r\n\r\nThis OID may also be used in CD.codeSystem.\">Uniform Resource Identifier (URI)</a>/urn:oid:1.2.840.113556.1.8000.2554.53432.348.12973.17740.34205.4355.50220.62003</p><p><b>identifier</b>: <a href=\"http://terminology.hl7.org/5.5.0/NamingSystem-uri.html\" title=\"As defined by RFC 3986 (http://www.ietf.org/rfc/rfc3986.txt)(with many schemes defined in many RFCs). For OIDs and UUIDs, use the URN form (urn:oid:(note: lowercase) and urn:uuid:). See http://www.ietf.org/rfc/rfc3001.txt and http://www.ietf.org/rfc/rfc4122.txt \r\n\r\nThis oid is used as an identifier II.root to indicate the the extension is an absolute URI (technically, an IRI). Typically, this is used for OIDs and GUIDs. Note that when this OID is used with OIDs and GUIDs, the II.extension should start with urn:oid or urn:uuid: \r\n\r\nNote that this OID is created to aid with interconversion between CDA and FHIR - FHIR uses urn:ietf:rfc:3986 as equivalent to this OID. URIs as identifiers appear more commonly in FHIR.\r\n\r\nThis OID may also be used in CD.codeSystem.\">Uniform Resource Identifier (URI)</a>/urn:uuid:7d5bb8ac-68ee-4926-85e7-b8aac8e1f11e\u00a0(use:\u00a0official,\u00a0)</p><p><b>status</b>: Current</p><p><b>type</b>: <span title=\"Codes:{http://loinc.org 60591-5}\">Patient Summary Document</span></p><blockquote><p><b>content</b></p><h3>Attachments</h3><table class=\"grid\"><tr><td style=\"display: none\">-</td><td><b>ContentType</b></td><td><b>Url</b></td></tr><tr><td style=\"display: none\">*</td><td>application/pdf</td><td><a href=\"https://worldhealthorganization.github.io/smart-ips-pilgrimage/branches/2.0.0/MyIPS.pdf\">https://worldhealthorganization.github.io/smart-ips-pilgrimage/branches/2.0.0/MyIPS.pdf</a></td></tr></table><p><b>format</b>: <a href=\"https://profiles.ihe.net/fhir/ihe.formatcode.fhir/1.2.0/CodeSystem-formatcode.html#formatcode-urn.58ihe.58iti.58xds.582017.58mimeTypeSufficient\">IHE Format Code set for use with Document Sharing urn:ihe:iti:xds:2017:mimeTypeSufficient</a>: mimeType Sufficient</p></blockquote></div>"
      },
      "masterIdentifier" : {
        "system" : "urn:ietf:rfc:3986",
        "value" : "urn:oid:1.2.840.113556.1.8000.2554.53432.348.12973.17740.34205.4355.50220.62003"
      },
      "identifier" : [{
        "use" : "official",
        "system" : "urn:ietf:rfc:3986",
        "value" : "urn:uuid:7d5bb8ac-68ee-4926-85e7-b8aac8e1f11e"
      }],
      "status" : "current",
      "type" : {
        "coding" : [{
          "system" : "http://loinc.org",
          "code" : "60591-5",
          "display" : "Patient Summary Document"
        }]
      },
      "content" : [{
        "attachment" : {
          "contentType" : "application/pdf",
          "url" : "https://worldhealthorganization.github.io/smart-ips-pilgrimage/branches/2.0.0/MyIPS.pdf"
        },
        "format" : {
          "system" : "http://ihe.net/fhir/ihe.formatcode.fhir/CodeSystem/formatcode",
          "code" : "urn:ihe:iti:xds:2017:mimeTypeSufficient"
        }
      }]
    }
  },
  {
    "fullUrl" : "http://smart.who.int/ips-pilgrimage/DocumentReference/FHIRIPSDocumentReference",
    "resource" : {
      "resourceType" : "DocumentReference",
      "id" : "FHIRIPSDocumentReference",
      "meta" : {
        "profile" : ["https://profiles.ihe.net/ITI/MHD/StructureDefinition/IHE.MHD.Minimal.DocumentReference"],
        "security" : [{
          "system" : "http://terminology.hl7.org/CodeSystem/v3-ActReason",
          "code" : "HTEST"
        }]
      },
      "text" : {
        "status" : "generated",
        "div" : "<div xmlns=\"http://www.w3.org/1999/xhtml\"><a name=\"DocumentReference_FHIRIPSDocumentReference\"> </a><p class=\"res-header-id\"><b>Generated Narrative: DocumentReference FHIRIPSDocumentReference</b></p><a name=\"FHIRIPSDocumentReference\"> </a><a name=\"hcFHIRIPSDocumentReference\"> </a><a name=\"FHIRIPSDocumentReference-en-US\"> </a><div style=\"display: inline-block; background-color: #d9e0e7; padding: 6px; margin: 4px; border: 1px solid #8da1b4; border-radius: 5px; line-height: 60%\"><p style=\"margin-bottom: 0px\"/><p style=\"margin-bottom: 0px\">Profile: <a href=\"https://profiles.ihe.net/ITI/MHD/4.2.2/StructureDefinition-IHE.MHD.Minimal.DocumentReference.html\">MHD DocumentReference Minimal</a></p><p style=\"margin-bottom: 0px\">Security Label: test health data (Details: ActReason code HTEST = 'test health data')</p></div><p><b>masterIdentifier</b>: <a href=\"http://terminology.hl7.org/5.5.0/NamingSystem-uri.html\" title=\"As defined by RFC 3986 (http://www.ietf.org/rfc/rfc3986.txt)(with many schemes defined in many RFCs). For OIDs and UUIDs, use the URN form (urn:oid:(note: lowercase) and urn:uuid:). See http://www.ietf.org/rfc/rfc3001.txt and http://www.ietf.org/rfc/rfc4122.txt \r\n\r\nThis oid is used as an identifier II.root to indicate the the extension is an absolute URI (technically, an IRI). Typically, this is used for OIDs and GUIDs. Note that when this OID is used with OIDs and GUIDs, the II.extension should start with urn:oid or urn:uuid: \r\n\r\nNote that this OID is created to aid with interconversion between CDA and FHIR - FHIR uses urn:ietf:rfc:3986 as equivalent to this OID. URIs as identifiers appear more commonly in FHIR.\r\n\r\nThis OID may also be used in CD.codeSystem.\">Uniform Resource Identifier (URI)</a>/urn:oid:1.2.840.113556.1.8000.2554.53432.348.12973.17740.34205.4355.50220.62002</p><p><b>identifier</b>: <a href=\"http://terminology.hl7.org/5.5.0/NamingSystem-uri.html\" title=\"As defined by RFC 3986 (http://www.ietf.org/rfc/rfc3986.txt)(with many schemes defined in many RFCs). For OIDs and UUIDs, use the URN form (urn:oid:(note: lowercase) and urn:uuid:). See http://www.ietf.org/rfc/rfc3001.txt and http://www.ietf.org/rfc/rfc4122.txt \r\n\r\nThis oid is used as an identifier II.root to indicate the the extension is an absolute URI (technically, an IRI). Typically, this is used for OIDs and GUIDs. Note that when this OID is used with OIDs and GUIDs, the II.extension should start with urn:oid or urn:uuid: \r\n\r\nNote that this OID is created to aid with interconversion between CDA and FHIR - FHIR uses urn:ietf:rfc:3986 as equivalent to this OID. URIs as identifiers appear more commonly in FHIR.\r\n\r\nThis OID may also be used in CD.codeSystem.\">Uniform Resource Identifier (URI)</a>/urn:uuid:7d5bb8ac-68ee-4926-85e7-b8aac8e1f10e\u00a0(use:\u00a0official,\u00a0)</p><p><b>status</b>: Current</p><p><b>type</b>: <span title=\"Codes:{http://loinc.org 60591-5}\">Patient Summary Document</span></p><blockquote><p><b>content</b></p><h3>Attachments</h3><table class=\"grid\"><tr><td style=\"display: none\">-</td><td><b>ContentType</b></td><td><b>Url</b></td></tr><tr><td style=\"display: none\">*</td><td>application/fhir+json</td><td><a href=\"https://worldhealthorganization.github.io/smart-ips-pilgrimage/branches/2.0.0/Bundle-MyIPS.json\">https://worldhealthorganization.github.io/smart-ips-pilgrimage/branches/2.0.0/Bundle-MyIPS.json</a></td></tr></table><p><b>format</b>: unknown http://hl7.org/fhir/uv/ips/StructureDefinition/Bundle-uv-ips: http://hl7.org/fhir/uv/ips/StructureDefinition/Bundle-uv-ips</p></blockquote></div>"
      },
      "masterIdentifier" : {
        "system" : "urn:ietf:rfc:3986",
        "value" : "urn:oid:1.2.840.113556.1.8000.2554.53432.348.12973.17740.34205.4355.50220.62002"
      },
      "identifier" : [{
        "use" : "official",
        "system" : "urn:ietf:rfc:3986",
        "value" : "urn:uuid:7d5bb8ac-68ee-4926-85e7-b8aac8e1f10e"
      }],
      "status" : "current",
      "type" : {
        "coding" : [{
          "system" : "http://loinc.org",
          "code" : "60591-5",
          "display" : "Patient Summary Document"
        }]
      },
      "content" : [{
        "attachment" : {
          "contentType" : "application/fhir+json",
          "url" : "https://worldhealthorganization.github.io/smart-ips-pilgrimage/branches/2.0.0/Bundle-MyIPS.json"
        },
        "format" : {
          "system" : "urn:ietf:rfc:3986",
          "code" : "http://hl7.org/fhir/uv/ips/StructureDefinition/Bundle-uv-ips"
        }
      }]
    }
  },
  {
    "fullUrl" : "http://smart.who.int/ips-pilgrimage/DocumentReference/IPSSignedPDFDocumentReference",
    "resource" : {
      "resourceType" : "DocumentReference",
      "id" : "IPSSignedPDFDocumentReference",
      "meta" : {
        "profile" : ["https://profiles.ihe.net/ITI/MHD/StructureDefinition/IHE.MHD.Minimal.DocumentReference"],
        "security" : [{
          "system" : "http://terminology.hl7.org/CodeSystem/v3-ActReason",
          "code" : "HTEST"
        }]
      },
      "text" : {
        "status" : "generated",
        "div" : "<div xmlns=\"http://www.w3.org/1999/xhtml\"><a name=\"DocumentReference_IPSSignedPDFDocumentReference\"> </a><p class=\"res-header-id\"><b>Generated Narrative: DocumentReference IPSSignedPDFDocumentReference</b></p><a name=\"IPSSignedPDFDocumentReference\"> </a><a name=\"hcIPSSignedPDFDocumentReference\"> </a><a name=\"IPSSignedPDFDocumentReference-en-US\"> </a><div style=\"display: inline-block; background-color: #d9e0e7; padding: 6px; margin: 4px; border: 1px solid #8da1b4; border-radius: 5px; line-height: 60%\"><p style=\"margin-bottom: 0px\"/><p style=\"margin-bottom: 0px\">Profile: <a href=\"https://profiles.ihe.net/ITI/MHD/4.2.2/StructureDefinition-IHE.MHD.Minimal.DocumentReference.html\">MHD DocumentReference Minimal</a></p><p style=\"margin-bottom: 0px\">Security Label: test health data (Details: ActReason code HTEST = 'test health data')</p></div><p><b>masterIdentifier</b>: <a href=\"http://terminology.hl7.org/5.5.0/NamingSystem-uri.html\" title=\"As defined by RFC 3986 (http://www.ietf.org/rfc/rfc3986.txt)(with many schemes defined in many RFCs). For OIDs and UUIDs, use the URN form (urn:oid:(note: lowercase) and urn:uuid:). See http://www.ietf.org/rfc/rfc3001.txt and http://www.ietf.org/rfc/rfc4122.txt \r\n\r\nThis oid is used as an identifier II.root to indicate the the extension is an absolute URI (technically, an IRI). Typically, this is used for OIDs and GUIDs. Note that when this OID is used with OIDs and GUIDs, the II.extension should start with urn:oid or urn:uuid: \r\n\r\nNote that this OID is created to aid with interconversion between CDA and FHIR - FHIR uses urn:ietf:rfc:3986 as equivalent to this OID. URIs as identifiers appear more commonly in FHIR.\r\n\r\nThis OID may also be used in CD.codeSystem.\">Uniform Resource Identifier (URI)</a>/urn:oid:1.2.840.113556.1.8000.2554.53432.348.12973.17740.34205.4355.50220.62005</p><p><b>identifier</b>: <a href=\"http://terminology.hl7.org/5.5.0/NamingSystem-uri.html\" title=\"As defined by RFC 3986 (http://www.ietf.org/rfc/rfc3986.txt)(with many schemes defined in many RFCs). For OIDs and UUIDs, use the URN form (urn:oid:(note: lowercase) and urn:uuid:). See http://www.ietf.org/rfc/rfc3001.txt and http://www.ietf.org/rfc/rfc4122.txt \r\n\r\nThis oid is used as an identifier II.root to indicate the the extension is an absolute URI (technically, an IRI). Typically, this is used for OIDs and GUIDs. Note that when this OID is used with OIDs and GUIDs, the II.extension should start with urn:oid or urn:uuid: \r\n\r\nNote that this OID is created to aid with interconversion between CDA and FHIR - FHIR uses urn:ietf:rfc:3986 as equivalent to this OID. URIs as identifiers appear more commonly in FHIR.\r\n\r\nThis OID may also be used in CD.codeSystem.\">Uniform Resource Identifier (URI)</a>/urn:uuid:7d5bb8ac-68ee-4926-85e7-b8aac8e1f13e\u00a0(use:\u00a0official,\u00a0)</p><p><b>status</b>: Current</p><h3>RelatesTos</h3><table class=\"grid\"><tr><td style=\"display: none\">-</td><td><b>Code</b></td><td><b>Target</b></td></tr><tr><td style=\"display: none\">*</td><td>Signs</td><td><a href=\"DocumentReference-IPSPDFDocumentReference.html\">DocumentReference: masterIdentifier = OID:1.2.840.113556.1.8000.2554.53432.348.12973.17740.34205.4355.50220.62003; identifier = UUID:7d5bb8ac-68ee-4926-85e7-b8aac8e1f11e\u00a0(use:\u00a0official,\u00a0); status = current; type = Patient Summary Document</a></td></tr></table><blockquote><p><b>content</b></p><h3>Attachments</h3><table class=\"grid\"><tr><td style=\"display: none\">-</td><td><b>ContentType</b></td><td><b>Url</b></td></tr><tr><td style=\"display: none\">*</td><td>application/json</td><td><a href=\"https://worldhealthorganization.github.io/smart-ips-pilgrimage/branches/2.0.0/MySignedIPSPDF.json\">https://worldhealthorganization.github.io/smart-ips-pilgrimage/branches/2.0.0/MySignedIPSPDF.json</a></td></tr></table><p><b>format</b>: <a href=\"https://profiles.ihe.net/fhir/ihe.formatcode.fhir/1.2.0/CodeSystem-formatcode.html#formatcode-urn.58ihe.58iti.58dsg.58detached.582014\">IHE Format Code set for use with Document Sharing urn:ihe:iti:dsg:detached:2014</a>: ITI DSG Detached</p></blockquote></div>"
      },
      "masterIdentifier" : {
        "system" : "urn:ietf:rfc:3986",
        "value" : "urn:oid:1.2.840.113556.1.8000.2554.53432.348.12973.17740.34205.4355.50220.62005"
      },
      "identifier" : [{
        "use" : "official",
        "system" : "urn:ietf:rfc:3986",
        "value" : "urn:uuid:7d5bb8ac-68ee-4926-85e7-b8aac8e1f13e"
      }],
      "status" : "current",
      "relatesTo" : [{
        "code" : "signs",
        "target" : {
          "reference" : "DocumentReference/IPSPDFDocumentReference"
        }
      }],
      "content" : [{
        "attachment" : {
          "contentType" : "application/json",
          "url" : "https://worldhealthorganization.github.io/smart-ips-pilgrimage/branches/2.0.0/MySignedIPSPDF.json"
        },
        "format" : {
          "system" : "http://ihe.net/fhir/ihe.formatcode.fhir/CodeSystem/formatcode",
          "code" : "urn:ihe:iti:dsg:detached:2014"
        }
      }]
    }
  },
  {
    "fullUrl" : "http://smart.who.int/ips-pilgrimage/DocumentReference/FHIRIPSSignedDocumentReference",
    "resource" : {
      "resourceType" : "DocumentReference",
      "id" : "FHIRIPSSignedDocumentReference",
      "meta" : {
        "profile" : ["https://profiles.ihe.net/ITI/MHD/StructureDefinition/IHE.MHD.Minimal.DocumentReference"],
        "security" : [{
          "system" : "http://terminology.hl7.org/CodeSystem/v3-ActReason",
          "code" : "HTEST"
        }]
      },
      "text" : {
        "status" : "generated",
        "div" : "<div xmlns=\"http://www.w3.org/1999/xhtml\"><a name=\"DocumentReference_FHIRIPSSignedDocumentReference\"> </a><p class=\"res-header-id\"><b>Generated Narrative: DocumentReference FHIRIPSSignedDocumentReference</b></p><a name=\"FHIRIPSSignedDocumentReference\"> </a><a name=\"hcFHIRIPSSignedDocumentReference\"> </a><a name=\"FHIRIPSSignedDocumentReference-en-US\"> </a><div style=\"display: inline-block; background-color: #d9e0e7; padding: 6px; margin: 4px; border: 1px solid #8da1b4; border-radius: 5px; line-height: 60%\"><p style=\"margin-bottom: 0px\"/><p style=\"margin-bottom: 0px\">Profile: <a href=\"https://profiles.ihe.net/ITI/MHD/4.2.2/StructureDefinition-IHE.MHD.Minimal.DocumentReference.html\">MHD DocumentReference Minimal</a></p><p style=\"margin-bottom: 0px\">Security Label: test health data (Details: ActReason code HTEST = 'test health data')</p></div><p><b>masterIdentifier</b>: <a href=\"http://terminology.hl7.org/5.5.0/NamingSystem-uri.html\" title=\"As defined by RFC 3986 (http://www.ietf.org/rfc/rfc3986.txt)(with many schemes defined in many RFCs). For OIDs and UUIDs, use the URN form (urn:oid:(note: lowercase) and urn:uuid:). See http://www.ietf.org/rfc/rfc3001.txt and http://www.ietf.org/rfc/rfc4122.txt \r\n\r\nThis oid is used as an identifier II.root to indicate the the extension is an absolute URI (technically, an IRI). Typically, this is used for OIDs and GUIDs. Note that when this OID is used with OIDs and GUIDs, the II.extension should start with urn:oid or urn:uuid: \r\n\r\nNote that this OID is created to aid with interconversion between CDA and FHIR - FHIR uses urn:ietf:rfc:3986 as equivalent to this OID. URIs as identifiers appear more commonly in FHIR.\r\n\r\nThis OID may also be used in CD.codeSystem.\">Uniform Resource Identifier (URI)</a>/urn:oid:1.2.840.113556.1.8000.2554.53432.348.12973.17740.34205.4355.50220.62004</p><p><b>identifier</b>: <a href=\"http://terminology.hl7.org/5.5.0/NamingSystem-uri.html\" title=\"As defined by RFC 3986 (http://www.ietf.org/rfc/rfc3986.txt)(with many schemes defined in many RFCs). For OIDs and UUIDs, use the URN form (urn:oid:(note: lowercase) and urn:uuid:). See http://www.ietf.org/rfc/rfc3001.txt and http://www.ietf.org/rfc/rfc4122.txt \r\n\r\nThis oid is used as an identifier II.root to indicate the the extension is an absolute URI (technically, an IRI). Typically, this is used for OIDs and GUIDs. Note that when this OID is used with OIDs and GUIDs, the II.extension should start with urn:oid or urn:uuid: \r\n\r\nNote that this OID is created to aid with interconversion between CDA and FHIR - FHIR uses urn:ietf:rfc:3986 as equivalent to this OID. URIs as identifiers appear more commonly in FHIR.\r\n\r\nThis OID may also be used in CD.codeSystem.\">Uniform Resource Identifier (URI)</a>/urn:uuid:7d5bb8ac-68ee-4926-85e7-b8aac8e1f12e\u00a0(use:\u00a0official,\u00a0)</p><p><b>status</b>: Current</p><h3>RelatesTos</h3><table class=\"grid\"><tr><td style=\"display: none\">-</td><td><b>Code</b></td><td><b>Target</b></td></tr><tr><td style=\"display: none\">*</td><td>Signs</td><td><a href=\"DocumentReference-FHIRIPSDocumentReference.html\">DocumentReference: masterIdentifier = OID:1.2.840.113556.1.8000.2554.53432.348.12973.17740.34205.4355.50220.62002; identifier = UUID:7d5bb8ac-68ee-4926-85e7-b8aac8e1f10e\u00a0(use:\u00a0official,\u00a0); status = current; type = Patient Summary Document</a></td></tr></table><blockquote><p><b>content</b></p><h3>Attachments</h3><table class=\"grid\"><tr><td style=\"display: none\">-</td><td><b>ContentType</b></td><td><b>Url</b></td></tr><tr><td style=\"display: none\">*</td><td>application/json</td><td><a href=\"https://worldhealthorganization.github.io/smart-ips-pilgrimage/branches/2.0.0/MySignedIPS.json\">https://worldhealthorganization.github.io/smart-ips-pilgrimage/branches/2.0.0/MySignedIPS.json</a></td></tr></table><p><b>format</b>: <a href=\"https://profiles.ihe.net/fhir/ihe.formatcode.fhir/1.2.0/CodeSystem-formatcode.html#formatcode-urn.58ihe.58iti.58dsg.58detached.582014\">IHE Format Code set for use with Document Sharing urn:ihe:iti:dsg:detached:2014</a>: ITI DSG Detached</p></blockquote></div>"
      },
      "masterIdentifier" : {
        "system" : "urn:ietf:rfc:3986",
        "value" : "urn:oid:1.2.840.113556.1.8000.2554.53432.348.12973.17740.34205.4355.50220.62004"
      },
      "identifier" : [{
        "use" : "official",
        "system" : "urn:ietf:rfc:3986",
        "value" : "urn:uuid:7d5bb8ac-68ee-4926-85e7-b8aac8e1f12e"
      }],
      "status" : "current",
      "relatesTo" : [{
        "code" : "signs",
        "target" : {
          "reference" : "DocumentReference/FHIRIPSDocumentReference"
        }
      }],
      "content" : [{
        "attachment" : {
          "contentType" : "application/json",
          "url" : "https://worldhealthorganization.github.io/smart-ips-pilgrimage/branches/2.0.0/MySignedIPS.json"
        },
        "format" : {
          "system" : "http://ihe.net/fhir/ihe.formatcode.fhir/CodeSystem/formatcode",
          "code" : "urn:ihe:iti:dsg:detached:2014"
        }
      }]
    }
  }]
}